<?xml version="1.0" encoding="UTF-8"?>
<!--
This XML file includes a set of resources that test out difficult cases 
for servers to handle as part of a batch post
 -->
<Bundle xmlns="http://hl7.org/fhir" xmlns:xsi="http://www.w3.org/2001/XMLSchema-instance" xsi:schemaLocation="http://hl7.org/fhir file:///C:/work/org.hl7.fhir/build/schema/bundle.xsd">
	<id value="b248b1b2-1686-4b94-9936-37d7a5f94b51"/>
	<meta>
  	<lastUpdated value="2012-11-12T18:10:00Z"/>
	</meta>
	<type value="transaction"/>
	<base value="http://hl7.org/fhir/transaction/test-case"/>

	<!-- 
	  the first pair of entries is a simple person resource, followed by 
	  the provenance for the resource. The provenance identifies the 
	  resource by its randomly chosen identifier. The server has to reidentify
	  both the resources, and update the reference from the provenance resource
	  to the person resource (and fill out the version)
    -->
	<entry>
	  <resource>
      <Patient>
        <id value="1"/>
        <meta>
          <lastUpdated value="2012-11-12T18:10:00Z"/>
        </meta>
        <text>
          <status value="generated"/>
          <div xmlns="http://www.w3.org/1999/xhtml">
            <p>Henry Levin</p>
          </div>
        </text>
          <name>
            <family value="Levin"/>
            <given value="Henry"/>
          </name>
        <gender value="male"/>
        <birthDate value="1932-09-24"/>
      </Patient>
		</resource>
	</entry>
	<entry>
		<resource>
			<Provenance>
    		<id value="1"/>
    		<meta>
    		<lastUpdated value="2012-11-12T18:12:00Z"/>
    		</meta>
				<text>
					<status value="generated"/>
					<div xmlns="http://www.w3.org/1999/xhtml">Authored on 12-Nov 2011 by Grahame Grieve</div>
				</text>
				<target>
					<reference value="Patient/1"/>
				</target>
				<!-- nominal activity: editing the standard -->
  			<recorded value="2012-11-12T18:16:00Z"/>
				<!-- author -->
				<agent>
					<role>
						<system value="http://hl7.org/fhir/provenance-participant-role"/>
						<code value="author"/>
					</role>
					<type>
						<system value="http://hl7.org/fhir/provenance-participant-type"/>
						<code value="person"/>
					</type>
					<reference value="mailto:grahame@healthintersections.com.au"/>
				</agent>
			</Provenance>
		</resource>
	</entry>
	<!--
    For reference, here is an acceptable response from the server. actual dates, times, urls and ids will vary accordingly

<?xml version="1.0" encoding="UTF-8"?>
<Bundle 
    xmlns="http://hl7.org/fhir">
    <id value="c2b9271c-fb95-4510-b7ed-0af3d4bff1"/>
    <type value="transaction-response"/>
    <base value="http://localhost:960/open/"/>
    <entry>
        <resource>
            <Patient>
                <id value="299"/>
                <meta>
                    <versionId value="1"/>
                    <lastUpdated value="2015-01-02T07:06:33Z"/>
                </meta>
                <text>
                    <status value="generated"/>
                    <div 
                        xmlns="http://www.w3.org/1999/xhtml">&#xA;            
                        <p>Henry Levin</p>&#xA;          
                    </div>
                </text>
                <name>
                    <family value="Levin"/>
                    <given value="Henry"/>
                </name>
                <gender value="male"/>
                <birthDate value="1932-09-24"/>
            </Patient>
        </resource>
    </entry>
    <entry>
        <resource>
            <Provenance>
                <id value="4"/>
                <meta>
                    <versionId value="1"/>
                    <lastUpdated value="2015-01-02T07:06:36Z"/>
                </meta>
                <text>
                    <status value="generated"/>
                    <div 
                        xmlns="http://www.w3.org/1999/xhtml">Authored on 12-Nov 2011 by Grahame Grieve
                    </div>
                </text>
                <target>
                    <reference value="Patient/299"/>
                </target>
                
                <recorded value="2012-11-12T18:16:00Z"/>

                <agent>
                    <role>
                        <system value="http://hl7.org/fhir/provenance-participant-role"/>
                        <code value="author"/>
                    </role>
                    <type>
                        <system value="http://hl7.org/fhir/provenance-participant-type"/>
                        <code value="person"/>
                    </type>
                    <reference value="mailto:grahame@healthintersections.com.au"/>
                </agent>
            </Provenance>
        </resource>
    </entry>
</Bundle>

    -->
</Bundle>
